<?xml version="1.0" encoding="UTF-8"?>
<Bundle xmlns="http://hl7.org/fhir">
<id value="e3b0501b-3869-4aad-a899-ace8619c1032"/>
<meta>
<profile value="https://fhir.nhs.uk/StructureDefinition/dds-message-bundle-1"/>
</meta>
<type value="message"/>
	<entry>
		<fullUrl value="urn:uuid:40ff6b66-2bac-42ce-9454-b46fd2b70c07"/>
			<resource>
				<MessageHeader>
					<id value="63ab41c5-a6d0-4d7e-af36-fca70ea9e526"/>
					<meta>
						<profile value="https://fhir.nhs.uk/StructureDefinition/dds-message-header-1"/>
					</meta>
					<timestamp value="2017-05-04T15:02:11+00:00"/>
					<event>
						<system value="https://fhir.nhs.uk/dds-message-event-1"/>
						<code value="975701000000106"/>
					</event>
					<source>
						<name value="Hospital Sending System"/>
						<endpoint value="urn:nhs-uk:addressing:ods:RFM8C2"/>
					</source>
					<destination>
						<name value="Local Authority Receiving System"/>
						<endpoint value="urn:nhs-uk:addressing:ods:V396BB"/>
					</destination>
					<author>
						<reference value="urn:uuid:5b5d3bab-c1bb-434a-ab0d-82c4860bb098"/>
					</author>
					<receiver>
						<reference value="urn:uuid:ac831651ed4-4b25-97d9-2f204a51c182"/>
					</receiver>
					<responsible>
						<reference value="urn:uuid:88563c7f-b040-486a-9018-296bf9b94f32"/>
					</responsible>
					<data>
						<reference value="urn:uuid:37c1099d-638c-4970-bcc6-539403f6ca8e"/>
					</data>
				</MessageHeader>
			</resource>
	</entry>
	<entry>
		<fullUrl value="urn:uuid:bc3027a7-924c-44b5-8f1b-bfd5266c6905"/>
			<resource>
				<Patient>
					<id value="bc3027a7-924c-44b5-8f1b-bfd5266c6905"/>
					<meta>
						<profile value="https://fhir.hl7.org.uk/StructureDefinition/CareConnect-Patient-1"/>
					</meta>
					<extension url="https://fhir.hl7.org.uk/StructureDefinition/Extension-CareConnect-NHSCommunication-1">
						<extension url="language">
							<valueCodeableConcept>
								<coding>
									<system value="https://fhir.hl7.org.uk/CareConnect-HumanLanguage-1"/>
									<code value="cy"/>
									<display value="Welsh"/>
								</coding>
							</valueCodeableConcept>
						</extension>
						<extension url="preferred">
							<valueBoolean value="true"/>
						</extension>
						<extension url="interpreterRequired">
							<valueBoolean value="false"/>
						</extension>
					</extension>
					<identifier>
						<extension url="https://fhir.hl7.org.uk/StructureDefinition/Extension-CareConnect-NHSNumberVerificationStatus-1">
						<valueCodeableConcept>
							<coding>
								<system value="https://fhir.hl7.org.uk/CareConnect-NHSNumberVerificationStatus-1"/>
								<code value="01"/>
								<display value="Number present and verified"/>
							</coding>
						</valueCodeableConcept>
						</extension>
							<system value="https://fhir.nhs.uk/Id/nhs-number"/>
							<value value="9413946000"/>
							</identifier>
<identifier>
<system value="https://fhir.nhs.uk/Id/local-patient-identifier"/>
<value value="A1234521"/>
<assigner>
<reference value="urn:uuid:1ebc76fd-9612-4c72-81dd-de294a0e7287"/>
</assigner>
</identifier>
<name>
<use value="usual"/>
<family value="Jones"/>
<given value="Barry"/>
</name>
<telecom>
<system value="email"/>
<value value="barryJ@googlemail.com"/>
</telecom>
<telecom>
<system value="phone"/>
<value value="0113554466"/>
</telecom>
<gender value="male"/>
<birthDate value="1941-11-01"/>
<address>
<line value="The Old Lodge"/>
<line value="1 Little Street"/>
<line value="Chapeltown"/>
<city value="Leeds"/>
<district value="West Yorkshire"/>
<postalCode value="LS6 1UR"/>
</address>
<contact>
<relationship>
<coding>
<system value="https://fhir.hl7.org.uk/CareConnect-PersonRelationshipType-1"/>
<code value="20"/>
<display value="Carer"/>
</coding>
</relationship>
<name>
<use value="usual"/>
<family value="Bloom"/>
<given value="Sandra"/>
</name>
<telecom>
<system value="email"/>
<value value="Sbloom123@yahoo.com"/>
</telecom>
<telecom>
<system value="phone"/>
<value value="0113237656"/>
</telecom>
</contact>
					</Patient>
				</resource>
			</entry>
			<entry>
				<fullUrl value="urn:uuid:5b5d3bab-c1bb-434a-ab0d-82c4860bb098"/>
					<resource>
						<Practitioner>
							<id value="5b5d3bab-c1bb-434a-ab0d-82c4860bb098"/>
<meta>
<profile value="https://fhir.hl7.org.uk/StructureDefinition/CareConnect-Practitioner-1"/>
</meta>
<name>
<family value="Gulliver"/>
<given value="Leticia"/>
</name>
<telecom>
<system value="email"/>
<value value="leticia.gulliver@nhs.net"/>
</telecom>
<telecom>
<system value="phone"/>
<value value="0191223344"/>
</telecom>
<practitionerRole>
<managingOrganization>
<reference value="urn:uuid:1ebc76fd-9612-4c72-81dd-de294a0e7287"/>
</managingOrganization>
<specialty>
<coding>
<system value="https://fhir.nhs.uk/job-role-name-1"/>
<code value="NR2060"/>
<display value="Discharge coordinator"/>
</coding>
<text value="Hospital Liaison"/>
</specialty>
</practitionerRole>
</Practitioner>
</resource>
</entry>
<entry>
<fullUrl value="urn:uuid:88563c7f-b040-486a-9018-296bf9b94f32"/>
<resource>
<Practitioner>
<id value="88563c7f-b040-486a-9018-296bf9b94f32"/>
<meta>
<profile value="https://fhir.hl7.org.uk/StructureDefinition/CareConnect-Practitioner-1"/>
</meta>
<name>
<family value="Stibbs"/>
<given value="Nigel"/>
</name>
<practitionerRole>
<managingOrganization>
<reference value="urn:uuid:1ebc76fd-9612-4c72-81dd-de294a0e7287"/>
</managingOrganization>
<specialty>
<coding>
<system value="https://fhir.nhs.uk/job-role-name-1"/>
<code value="NR0050"/>
<display value="Consultant"/>
</coding>
<text value="Lead Clinician"/>
</specialty>
</practitionerRole>
</Practitioner>
</resource>
</entry>
<entry>
<fullUrl value="urn:uuid:1ebc76fd-9612-4c72-81dd-de294a0e7287"/>
<resource>
<Organization>
<id value="1ebc76fd-9612-4c72-81dd-de294a0e7287"/>
<meta>
<profile value="https://fhir.hl7.org.uk/StructureDefinition/CareConnect-Organization-1"/>
</meta>
<identifier>
<system value="https://fhir.nhs.uk/Id/ods-organization-code"/>
<value value="RFM8C2"/>
</identifier>
<type>
<coding>
<system value="http://hl7.org/fhir/organization-type"/>
<code value="prov"/>
<display value="Healthcare Provider"/>
</coding>
<text value="Hospital"/>
</type>
<name value="Hebburn Hospital"/>
					</Organization>
				</resource>
			</entry>
			<entry>
				<fullUrl value="urn:uuid:dab4b872-e000-42ec-bd4e-0d804fc3b92e"/>
					<resource>
						<Organization>
<id value="dab4b872-e000-42ec-bd4e-0d804fc3b92e"/>
<meta>
<profile value="https://fhir.hl7.org.uk/StructureDefinition/CareConnect-Organization-1"/>
</meta>
<identifier>
<system value="https://fhir.nhs.uk/Id/ods-organization-code"/>
<value value="V396BB"/>
</identifier>
<type>
<coding>
<system value="http://hl7.org/fhir/organization-type"/>
<code value="govt"/>
<display value="Government"/>
</coding>
<text value="Local Authority"/>
</type>
<name value="Hebburn Council"/>
</Organization>
</resource>
</entry>
<entry>
<fullUrl value="urn:uuid:ac831651ed4-4b25-97d9-2f204a51c182"/>
<resource>
<Organization>
<id value="ac831651ed4-4b25-97d9-2f204a51c182"/>
<meta>
<profile value="https://fhir.hl7.org.uk/StructureDefinition/CareConnect-Organization-1"/>
</meta>
<type>
<coding>
<system value="http://hl7.org/fhir/organization-type"/>
<code value="team"/>
<display value="Organizational team"/>
</coding>
<text value="Local Authority Social Services' Team"/>
</type>
<name value="Hebburn Social Services' Community Team"/>
<partOf>
<reference value="urn:uuid:dab4b872-e000-42ec-bd4e-0d804fc3b92e"/>
</partOf>
						</Organization>
					</resource>
				</entry>
				<entry>
						<fullUrl value="urn:uuid:ce114cdd-cfeb-4533-b3c4-3c0dd450b25c"/>
							<resource>
								<Location>
<id value="ce114cdd-cfeb-4533-b3c4-3c0dd450b25c"/>
<meta>
<profile value="https://fhir.hl7.org.uk/StructureDefinition/CareConnect-Location-1"/>
</meta>
<name value="Collier Ward"/>
<managingOrganization>
<reference value="urn:uuid:1ebc76fd-9612-4c72-81dd-de294a0e7287"/>
</managingOrganization>
						</Location>
					</resource>
				</entry>
<entry>
	<resource>
	<DiagnosticOrder xmlns="http://hl7.org/fhir">
	<meta>
		<profile value="https://fhir.nhs.uk/StructureDefinition/dds-request-1-0"/>
	</meta>
	<subject>
		<!-- This is reference to the patient profile elsewhere in the message -->
		<reference value="urn:uuid:b2d4b85d-ac24-4e9c-a368-588c3f34f570"/>
		<display value="William Arthur Smith"/>
	</subject>
	<orderer>
		<!-- This is reference to the practitioner profile elsewhere in the message -->
		<reference value="urn:uuid:4bfca0ef-85d0-4c5e-b662-d4910bb83d82"/>
		<display value="Dr. Jones"/>
	</orderer>
	<identifier>
		<!-- Requestor identifier e.g. requesting GP-->
		<system value="http://www.mmc.nhs.uk/request-identifier"/>
		<value value="D4910BB83D82"/>
		<assigner>
			<reference value="urn:uuid:78d64bb3-b5b2-450b-aeb7-d9035ebc711d"/>
		</assigner>
	</identifier>
	<identifier>
		<!-- Reporter identifier e.g. receiving laboratory-->
		<system value="http://www.sampleth.nhs.uk/pathology/request-identifier"/>
		<value value="STHTPATH8667800054"/>
		<assigner>
			<reference value="urn:uuid:223f5c66-66bf-4cea-a5d7-25ab9348b448"/>
		</assigner>
	</identifier>
	<!--SnomedCT code showing the reason for the request. Need to consult Subject matter experts for appropriateness-->
	<reason>
		<coding>
			<system value="http://snomed.info/sct"/>
			<code value="171123001"/>
			<display value="Hepatitis B screening required"/>
			<userSelected value="true"/>
		</coding>
	</reason>
	<specimen>
		<!-- This is reference to the specimen profile elsewhere in the message -->
		<reference value="urn:uuid:b603cede-8c3f-4909-9cb1-d47c0fde9f8a"/>
	</specimen>
	<status value="requested"/>
	<priority value="routine"/>
	<event>
		<status value="requested"/>
		<dateTime value="2016-04-08T11:06:15+01:00"/>
	</event>
	<item>
		<!--SnomedCT code showing the test requested. Need to consult Subject matter experts for appropriateness. Also, should this contain the full panel or component tests requested?-->
		<code>
			<coding>
				<system value="http://snomed.info/sct"/>
				<code value="1028341000000105"/>
				<display value="Hepatitis B antigen screening"/>
				<userSelected value="true"/>
			</coding>
		</code>
	</item>
</DiagnosticOrder>
	</resource>
</entry>				
<entry>
	<resource>
<Specimen xmlns="http://hl7.org/fhir">
	<meta>
		<profile value="https://fhir.nhs.uk/StructureDefinition/dds-specimen-1-0"/>
	</meta>
	<identifier>
		<use value="official"/>
		<value value="83bf8c17-9b27-465a-84b2-cec6e4977a1e"/>
		<period>
			<start value="2016-01-01"/>
		</period>
		<assigner>
			<reference value="urn:uuid:M85008"/>
			<display value="Assigning Organisation"/>
		</assigner>
	</identifier>
	<status value="available"/>
	<type>
		<coding>
			<system value="http://snomed.info/sct"/>
			<version value=" 20150731"/>
			<code value="119297000"/>
			<display value="blood specimen"/>
			<userSelected value="true"/>
		</coding>
	</type>
	<subject>
		<reference value="urn:uuid:b2d4b85d-ac24-4e9c-a368-588c3f34f570"/>
		<display value="William Arthur Smith"/>
	</subject>
	<accessionIdentifier>
		<value value="ECC4D353"/>
		<period>
			<start value="2016-01-03"/>
		</period>
	</accessionIdentifier>
	<receivedTime value="0900"/>
	<collection>
		<collector>
			<reference value="urn:uuid:856F14A7-5323-4998-930A-A63E29B79F2F"/>
			<display value="Nurse. Brown"/>
		</collector>
		<quantity>
			<value value="6"/>
			<unit value="mL"/>
		</quantity>
		<method>
			<coding>
				<system value="http://snomed.info/sct"/>
				<version value=" 20150731"/>
				<code value=" 2661284019"/>
				<display value="Diagnostic blood test (procedure)"/>
				<userSelected value="true"/>
			</coding>
		</method>
		<bodySite>
			<coding>
				<system value="http://snomed.info/sct"/>
				<version value=" 20150731"/>
				<code value="53120007"/>
				<display value="Arm"/>
				<userSelected value="true"/>
			</coding>
		</bodySite>
	</collection>
	<treatment>
		<description value="Haemoglobin A1c level DCCT aligned, blood">
		</description>
		<procedure>
			<coding>
				<system value="http://snomed.info/sct"/>
				<version value=" 20150731"/>
				<code value="313835008"/>
				<display value="Hemoglobin A1c measurement aligned to the Diabetes Control and Complications Trial (procedure)"/>
				<userSelected value="true"/>
			</coding>
		</procedure>
	</treatment>
	<container>
		<identifier>
			<value value="08fc96c4-eb3a-46d3-93c5-4b23792dcc1c"/>
		</identifier>
		<type>
			<coding>
				<system value="http://snomed.info/sct"/>
				<version value=" 20150731"/>
				<code value="434746001"/>
				<display value="Specimen vial"/>
			</coding>
		</type>
		<capacity>
			<value value="10"/>
			<unit value="mL"/>
		</capacity>
	</container>
</Specimen>
	</resource>
</entry>		
<entry>
	<resource>
<Substance xmlns="http://hl7.org/fhir">
	<id value="fafee321-1a7e-4e7c-876a-debdfb0aaedf"/>
	<!--Identifies the profile being used-->
	<meta>
		<profile value="https://fhir.nhs.uk/StructureDefinition/dds-report-substance-1-0"/>
	</meta>
	<!--Shows two ingredients for the tablet contained in the master profile.-->
	<contained>
		<Substance>
			<id value="ingr1"/>
			<code>
				<coding>
					<system value="http://snomed.info/sct"/>
					<code value="372687004"/>
					<display value="Amoxicillin"/>
				</coding>
			</code>
		</Substance>
	</contained>
	<contained>
		<Substance>
			<id value="ingr2"/>
			<code>
				<coding>
					<system value="http://snomed.info/sct"/>
					<code value="395938000"/>
					<display value="Clavulanate potassium"/>
				</coding>
			</code>
		</Substance>
	</contained>
	<!--Master profile for the substance (tablet).-->
	<identifier>
		<use value="official"/>
		<type>
			<text value="Identifier allocated by manufacturing pharmaceutical company."/>
		</type>
		<!--Unique identifier assigned to the tablet issued by the pharmaceutical manufacturer.-->
		<system value="http://www.pharm.com/Id/substance-id"/>
		<value value="aeb22d1d-0dbf-426c-b86c-3f47dca4a4e8"/>
		<assigner>
			<!-- This can be a reference to the profile elsewhere in the message or just text -->
			<reference value="urn:uuid:0A6F71A7-161D-4A84-8573-AB55DBB19340"/>
			<display value="Pharm Pharmaceuticals Limited"/>
		</assigner>
	</identifier>
	<category>
		<coding>
			<system value="http://hl7.org.fhir/substance-category"/>
			<code value="drug"/>
			<display value="Drug or Medicament"/>
		</coding>
	</category>
	<code>
		<coding>
			<system value="http://snomed.info/sct"/>
			<code value="392259005"/>
			<display value="co-amoxiclav 875mg/125mg tablet"/>
		</coding>
	</code>
	<description value="Augmentin 875"/>
	<instance>
	<!--Identifier of the package containing the tablet-->
<identifier>
<!--Unique identifier assigned to the tablet issued by the pharmaceutical manufacturer.-->
<use value="official"/>
		<type>
			<text value="Identifier for the package containing the tablets allocated by manufacturing pharmaceutical company."/>
		</type>
		<system value="http://www.pharm.com/Id/package-id"/>
		<value value="d8bf142a-525e-4107-bb4d-67516df492da"/>
		<assigner>
			<!-- This can be a reference to the profile elsewhere in the message or just text -->
			<reference value="urn:uuid:0A6F71A7-161D-4A84-8573-AB55DBB19340"/>
			<display value="Pharm Pharmaceuticals Limited"/>
		</assigner>
</identifier>
<expiry value="2017-05-10"/>
</instance>
	<!--First ingredient of the master substance (tablet)-->
	<ingredient>
		<quantity>
			<numerator>
				<value value="875"/>
				<unit value="milligram"/>
				<system value="http://unitsofmeasure.org"/>
				<code value="mg"/>
			</numerator>
			<denominator>
				<value value="1000"/>
				<unit value="milligram"/>
				<system value="http://unitsofmeasure.org"/>
				<code value="mg"/>
			</denominator>
		</quantity>
		<!--Reference to first substance which makes up this master substance.-->
		<substance>
			<reference value="#ingr1"/>
		</substance>
	</ingredient>
	<!--Second ingredient of the master substance (tablet)-->
	<ingredient>
		<quantity>
			<numerator>
				<value value="125"/>
				<unit value="milligram"/>
				<system value="http://unitsofmeasure.org"/>
				<code value="mg"/>
			</numerator>
			<denominator>
				<value value="1000"/>
				<unit value="milligram"/>
				<system value="http://unitsofmeasure.org"/>
				<code value="mg"/>
			</denominator>
		</quantity>
		<!--Reference to second substance which makes up this master substance.-->
		<substance>
			<reference value="#ingr2"/>
		</substance>
	</ingredient>
</Substance>
	</resource>
</entry>
				
</Bundle>
