<?xml version="1.0" encoding="UTF-8"?>
<!--This example message is provided for illustrative purposes only. It has had no clinical validation. Where there are conflicts with the written message specification or schema, the specification or schema shall be considered to take precedence.-->
<!--This example shows the substance co-amoxiclav 875mg/125mg tablet.-->
<Substance xmlns="http://hl7.org/fhir" xmlns:xhtml="http://www.w3.org/1999/xhtml" xmlns:xsi="http://www.w3.org/2001/XMLSchema-instance" xsi:schemaLocation="http://hl7.org/fhir ../../Schemas/substance.xsd">
	<id value="fafee321-1a7e-4e7c-876a-debdfb0aaedf"/>
	<!--Identifies the profile being used-->
	<meta>
		<profile value="https://fhir.nhs.uk/StructureDefinition/dds-report-substance-1-0"/>
	</meta>
	<!--Shows two ingredients for the tablet contained in the master profile.-->
	<contained>
		<Substance>
			<id value="ingr1"/>
			<code>
				<coding>
					<system value="http://snomed.info/sct"/>
					<code value="372687004"/>
					<display value="Amoxicillin"/>
				</coding>
			</code>
		</Substance>
	</contained>
	<contained>
		<Substance>
			<id value="ingr2"/>
			<code>
				<coding>
					<system value="http://snomed.info/sct"/>
					<code value="395938000"/>
					<display value="Clavulanate potassium"/>
				</coding>
			</code>
		</Substance>
	</contained>
	<!--Master profile for the substance (tablet).-->
	<identifier>
		<use value="official"/>
		<type>
			<text value="Identifier allocated by manufacturing pharmaceutical company."/>
		</type>
		<!--Unique identifier assigned to the tablet issued by the pharmaceutical manufacturer.-->
		<system value="http://www.pharm.com/Id/substance-id"/>
		<value value="aeb22d1d-0dbf-426c-b86c-3f47dca4a4e8"/>
		<assigner>
			<!-- This can be a reference to the profile elsewhere in the message or just text -->
			<reference value="urn:uuid:0a6f71a7-161d-4a84-8573-ab55dbb19340"/>
			<display value="Pharm Pharmaceuticals Limited"/>
		</assigner>
	</identifier>
	<category>
		<coding>
			<system value="http://hl7.org.fhir/substance-category"/>
			<code value="drug"/>
			<display value="Drug or Medicament"/>
		</coding>
	</category>
	<code>
		<coding>
			<system value="http://snomed.info/sct"/>
			<code value="392259005"/>
			<display value="co-amoxiclav 875mg/125mg tablet"/>
		</coding>
	</code>
	<description value="Augmentin 875"/>
	<instance>
	<!--Identifier of the package containing the tablet-->
<identifier>
<!--Unique identifier assigned to the tablet issued by the pharmaceutical manufacturer.-->
<use value="official"/>
		<type>
			<text value="Identifier for the package containing the tablets allocated by manufacturing pharmaceutical company."/>
		</type>
		<system value="http://www.pharm.com/Id/package-id"/>
		<value value="d8bf142a-525e-4107-bb4d-67516df492da"/>
		<assigner>
			<!-- This can be a reference to the profile elsewhere in the message or just text -->
			<reference value="urn:uuid:0a6f71a7-161d-4a84-8573-ab55dbb19340"/>
			<display value="Pharm Pharmaceuticals Limited"/>
		</assigner>
</identifier>
<expiry value="2017-05-10"/>
</instance>
	<!--First ingredient of the master substance (tablet)-->
	<ingredient>
		<quantity>
			<numerator>
				<value value="875"/>
				<unit value="milligram"/>
				<system value="http://unitsofmeasure.org"/>
				<code value="mg"/>
			</numerator>
			<denominator>
				<value value="1000"/>
				<unit value="milligram"/>
				<system value="http://unitsofmeasure.org"/>
				<code value="mg"/>
			</denominator>
		</quantity>
		<!--Reference to first substance which makes up this master substance.-->
		<substance>
			<reference value="#ingr1"/>
		</substance>
	</ingredient>
	<!--Second ingredient of the master substance (tablet)-->
	<ingredient>
		<quantity>
			<numerator>
				<value value="125"/>
				<unit value="milligram"/>
				<system value="http://unitsofmeasure.org"/>
				<code value="mg"/>
			</numerator>
			<denominator>
				<value value="1000"/>
				<unit value="milligram"/>
				<system value="http://unitsofmeasure.org"/>
				<code value="mg"/>
			</denominator>
		</quantity>
		<!--Reference to second substance which makes up this master substance.-->
		<substance>
			<reference value="#ingr2"/>
		</substance>
	</ingredient>
</Substance>