<?xml version="1.0" encoding="UTF-8"?>
<Bundle xmlns="http://hl7.org/fhir">
<id value="e3b0501b-3869-4aad-a899-ace8619c1032"/>
<meta>
<profile value="https://fhir.nhs.uk/StructureDefinition/dds-message-bundle-1"/>
</meta>
<type value="message"/>
	<entry>
		<fullUrl value="urn:uuid:40ff6b66-2bac-42ce-9454-b46fd2b70c07"/>
			<resource>
				<MessageHeader>
					<id value="63ab41c5-a6d0-4d7e-af36-fca70ea9e526"/>
					<meta>
						<profile value="https://fhir.nhs.uk/StructureDefinition/dds-message-header-1"/>
					</meta>
					<timestamp value="2017-05-04T15:02:11+00:00"/>
					<event>
						<system value="https://fhir.nhs.uk/dds-message-event-1"/>
						<code value="975701000000106"/>
					</event>
					<source>
						<name value="Hospital Sending System"/>
						<endpoint value="urn:nhs-uk:addressing:ods:RFM8C2"/>
					</source>
					<destination>
						<name value="Local Authority Receiving System"/>
						<endpoint value="urn:nhs-uk:addressing:ods:V396BB"/>
					</destination>
					<author>
						<reference value="urn:uuid:5b5d3bab-c1bb-434a-ab0d-82c4860bb098"/>
					</author>
					<receiver>
						<reference value="urn:uuid:ac831651ed4-4b25-97d9-2f204a51c182"/>
					</receiver>
					<responsible>
						<reference value="urn:uuid:88563c7f-b040-486a-9018-296bf9b94f32"/>
					</responsible>
					<data>
						<reference value="urn:uuid:37c1099d-638c-4970-bcc6-539403f6ca8e"/>
					</data>
				</MessageHeader>
			</resource>
	</entry>
	<entry>
		<fullUrl value="urn:uuid:bc3027a7-924c-44b5-8f1b-bfd5266c6905"/>
			<resource>
				<Patient>
					<id value="bc3027a7-924c-44b5-8f1b-bfd5266c6905"/>
					<meta>
						<profile value="https://fhir.hl7.org.uk/StructureDefinition/CareConnect-Patient-1"/>
					</meta>
					<extension url="https://fhir.hl7.org.uk/StructureDefinition/Extension-CareConnect-NHSCommunication-1">
						<extension url="language">
							<valueCodeableConcept>
								<coding>
									<system value="https://fhir.hl7.org.uk/CareConnect-HumanLanguage-1"/>
									<code value="cy"/>
									<display value="Welsh"/>
								</coding>
							</valueCodeableConcept>
						</extension>
						<extension url="preferred">
							<valueBoolean value="true"/>
						</extension>
						<extension url="interpreterRequired">
							<valueBoolean value="false"/>
						</extension>
					</extension>
					<identifier>
						<extension url="https://fhir.hl7.org.uk/StructureDefinition/Extension-CareConnect-NHSNumberVerificationStatus-1">
						<valueCodeableConcept>
							<coding>
								<system value="https://fhir.hl7.org.uk/CareConnect-NHSNumberVerificationStatus-1"/>
								<code value="01"/>
								<display value="Number present and verified"/>
							</coding>
						</valueCodeableConcept>
						</extension>
							<system value="https://fhir.nhs.uk/Id/nhs-number"/>
							<value value="9413946000"/>
							</identifier>
<identifier>
<system value="https://fhir.nhs.uk/Id/local-patient-identifier"/>
<value value="A1234521"/>
<assigner>
<reference value="urn:uuid:1ebc76fd-9612-4c72-81dd-de294a0e7287"/>
</assigner>
</identifier>
<name>
<use value="usual"/>
<family value="Jones"/>
<given value="Barry"/>
</name>
<telecom>
<system value="email"/>
<value value="barryJ@googlemail.com"/>
</telecom>
<telecom>
<system value="phone"/>
<value value="0113554466"/>
</telecom>
<gender value="male"/>
<birthDate value="1941-11-01"/>
<address>
<line value="The Old Lodge"/>
<line value="1 Little Street"/>
<line value="Chapeltown"/>
<city value="Leeds"/>
<district value="West Yorkshire"/>
<postalCode value="LS6 1UR"/>
</address>
<contact>
<relationship>
<coding>
<system value="https://fhir.hl7.org.uk/CareConnect-PersonRelationshipType-1"/>
<code value="20"/>
<display value="Carer"/>
</coding>
</relationship>
<name>
<use value="usual"/>
<family value="Bloom"/>
<given value="Sandra"/>
</name>
<telecom>
<system value="email"/>
<value value="Sbloom123@yahoo.com"/>
</telecom>
<telecom>
<system value="phone"/>
<value value="0113237656"/>
</telecom>
</contact>
					</Patient>
				</resource>
			</entry>
			<entry>
				<fullUrl value="urn:uuid:5b5d3bab-c1bb-434a-ab0d-82c4860bb098"/>
					<resource>
						<Practitioner>
							<id value="5b5d3bab-c1bb-434a-ab0d-82c4860bb098"/>
<meta>
<profile value="https://fhir.hl7.org.uk/StructureDefinition/CareConnect-Practitioner-1"/>
</meta>
<name>
<family value="Gulliver"/>
<given value="Leticia"/>
</name>
<telecom>
<system value="email"/>
<value value="leticia.gulliver@nhs.net"/>
</telecom>
<telecom>
<system value="phone"/>
<value value="0191223344"/>
</telecom>
<practitionerRole>
<managingOrganization>
<reference value="urn:uuid:1ebc76fd-9612-4c72-81dd-de294a0e7287"/>
</managingOrganization>
<specialty>
<coding>
<system value="https://fhir.nhs.uk/job-role-name-1"/>
<code value="NR2060"/>
<display value="Discharge coordinator"/>
</coding>
<text value="Hospital Liaison"/>
</specialty>
</practitionerRole>
</Practitioner>
</resource>
</entry>
<entry>
<fullUrl value="urn:uuid:88563c7f-b040-486a-9018-296bf9b94f32"/>
<resource>
<Practitioner>
<id value="88563c7f-b040-486a-9018-296bf9b94f32"/>
<meta>
<profile value="https://fhir.hl7.org.uk/StructureDefinition/CareConnect-Practitioner-1"/>
</meta>
<name>
<family value="Stibbs"/>
<given value="Nigel"/>
</name>
<practitionerRole>
<managingOrganization>
<reference value="urn:uuid:1ebc76fd-9612-4c72-81dd-de294a0e7287"/>
</managingOrganization>
<specialty>
<coding>
<system value="https://fhir.nhs.uk/job-role-name-1"/>
<code value="NR0050"/>
<display value="Consultant"/>
</coding>
<text value="Lead Clinician"/>
</specialty>
</practitionerRole>
</Practitioner>
</resource>
</entry>
<entry>
<fullUrl value="urn:uuid:1ebc76fd-9612-4c72-81dd-de294a0e7287"/>
<resource>
<Organization>
<id value="1ebc76fd-9612-4c72-81dd-de294a0e7287"/>
<meta>
<profile value="https://fhir.hl7.org.uk/StructureDefinition/CareConnect-Organization-1"/>
</meta>
<identifier>
<system value="https://fhir.nhs.uk/Id/ods-organization-code"/>
<value value="RFM8C2"/>
</identifier>
<type>
<coding>
<system value="http://hl7.org/fhir/organization-type"/>
<code value="prov"/>
<display value="Healthcare Provider"/>
</coding>
<text value="Hospital"/>
</type>
<name value="Hebburn Hospital"/>
					</Organization>
				</resource>
			</entry>
			<entry>
				<fullUrl value="urn:uuid:dab4b872-e000-42ec-bd4e-0d804fc3b92e"/>
					<resource>
						<Organization>
<id value="dab4b872-e000-42ec-bd4e-0d804fc3b92e"/>
<meta>
<profile value="https://fhir.hl7.org.uk/StructureDefinition/CareConnect-Organization-1"/>
</meta>
<identifier>
<system value="https://fhir.nhs.uk/Id/ods-organization-code"/>
<value value="V396BB"/>
</identifier>
<type>
<coding>
<system value="http://hl7.org/fhir/organization-type"/>
<code value="govt"/>
<display value="Government"/>
</coding>
<text value="Local Authority"/>
</type>
<name value="Hebburn Council"/>
</Organization>
</resource>
</entry>
<entry>
<fullUrl value="urn:uuid:ac831651ed4-4b25-97d9-2f204a51c182"/>
<resource>
<Organization>
<id value="ac831651ed4-4b25-97d9-2f204a51c182"/>
<meta>
<profile value="https://fhir.hl7.org.uk/StructureDefinition/CareConnect-Organization-1"/>
</meta>
<type>
<coding>
<system value="http://hl7.org/fhir/organization-type"/>
<code value="team"/>
<display value="Organizational team"/>
</coding>
<text value="Local Authority Social Services' Team"/>
</type>
<name value="Hebburn Social Services' Community Team"/>
<partOf>
<reference value="urn:uuid:dab4b872-e000-42ec-bd4e-0d804fc3b92e"/>
</partOf>
						</Organization>
					</resource>
				</entry>
				<entry>
						<fullUrl value="urn:uuid:ce114cdd-cfeb-4533-b3c4-3c0dd450b25c"/>
							<resource>
								<Location>
<id value="ce114cdd-cfeb-4533-b3c4-3c0dd450b25c"/>
<meta>
<profile value="https://fhir.hl7.org.uk/StructureDefinition/CareConnect-Location-1"/>
</meta>
<name value="Collier Ward"/>
<managingOrganization>
<reference value="urn:uuid:1ebc76fd-9612-4c72-81dd-de294a0e7287"/>
</managingOrganization>
						</Location>
					</resource>
				</entry>
<entry>
	<resource>
		<DiagnosticReport xmlns="http://hl7.org/fhir">
	<id value="50ba1013-55f8-4740-880e-1fbb9b4aa125"/>
	<!--Identifies the profile being used-->
	<meta>
		<profile value="https://fhir.nhs.uk/StructureDefinition/dds-report-1-0"/>
	</meta>
	<identifier>
		<use value="official"/>
		<!-- The report identifier issued by the organisation -->
		<system value="http://www.sampleth.nhs.uk/pathology/report-identifier"/>
		<value value="STHTPATH89000000003"/>
		<!-- This can be a reference to the profile elsewhere in the message or just text -->
		<assigner>
			<reference value="urn:uuid:223f5c66-66bf-4cea-a5d7-25ab9348b448"/>
			<display value="Sampletown Teaching Hospitals, Pathology Services"/>
		</assigner>
	</identifier>
	<!-- Indicates this is a final report-->
	<status value="final"/>
	<category>
		<!-- A code(s) that classifies the clinical discipline, department or diagnostic service that created the report (e.g. cardiology, biochemistry, hematology, MRI). This may be used for searching, sorting and display purposes.-->
		<coding>
			<system value="http://hl7.org/fhir/ValueSet/diagnostic-service-sections"/>
			<code value="MB"/>
			<display value="Microbiology"/>
		</coding>
	</category>
	<!--SnomedCT code showing the name for the report. Need to consult Subject matter experts for appropriateness-->
	<code>
		<coding>
			<system value="http://snomed.info/sct"/>
			<code value="1028341000000105"/>
			<display value="Hepatitis B antigen screening"/>
		</coding>
	</code>
	<subject>
		<!-- This is reference to the patient profile elsewhere in the message -->
		<reference value="urn:uuid:b2d4b85d-ac24-4e9c-a368-588c3f34f570"/>
		<display value="William Arthur Smith"/>
	</subject>
	<effectiveDateTime value="2013-04-15T03:45:00+01:00"/>
	<issued value="2013-04-15T10:28:00+01:00"/>
	<performer>
		<!-- This is a reference to the organisation or practitioner responsible for issuing the report. -->
		<reference value="urn:uuid:4bfca0ef-85d0-4c5e-b662-d4910bb83d82"/>
	</performer>
	<request>
		<!-- Request identifier -->
		<display value="D4910BB83D82"/>
	</request>
	<!-- This is a reference to the specimen elsewhere in the message. -->
	<specimen>
		<reference value="urn:uuid:b603cede-8c3f-4909-9cb1-d47c0fde9f8a"/>
	</specimen>
	<result>
		<!--Reference to the relevant observation-->
		<reference value="urn:uuid:f1349f62-d2cc-4384-a86e-abd2a654c571"/>
		<display value="Results for Hepatitis B antigen screening"/>
	</result>
	<conclusion value="Immune to Hepatitis B. Immunity due to vaccination."/>
	<!--FHIR valueset mapping to SNOMEDCT clinical finding code showing the conclusion of the report.-->
	<codedDiagnosis>
		<coding>
			<system value="http://hl7.org/fhir/ValueSet/clinical-findings"/>
			<code value="271511000"/>
			<display value="Hepatitis B immune"/>
		</coding>
	</codedDiagnosis>
	<presentedForm>
		<contentType value="text/plain; charset=UTF-8, image/png"/>
		<language value="English"/>
		<url value="http://www.sampleth.nhs.uk/pathology/logo-small.png"/>
	</presentedForm>
</DiagnosticReport>
	</resource>
</entry>
<entry>
	<resource>
		<Specimen xmlns="http://hl7.org/fhir">
	<id value="b603cede-8c3f-4909-9cb1-d47c0fde9f8a"/>
	<meta>
		<!--Identifies the profile being used-->
		<profile value="https://fhir.nhs.uk/StructureDefinition/dds-report-specimen-1-0"/>
	</meta>
	<identifier>
		<use value="official"/>
		<system value="http://mmp.nhs.uk/id/specimen-id"/>
		<!-- Unique identifier of the specimen assigned by requester - UUID is used as an example only -->
		<value value="b603cede-8c3f-4909-9cb1-d47c0fde9f8a"/>
		<assigner>
			<!-- This can be a reference to the profile elsewhere in the message or just text -->
			<reference value="urn:uuid:78d64bb3-b5b2-450b-aeb7-d9035ebc711d"/>
			<display value="MGP Medical Centre"/>
		</assigner>
	</identifier>
	<!-- The specimen type - may revert to use of FHIR valueset once its suitability has been confirmed.-->
	<type>
		<coding>
			<system value="http://snomed.info/sct"/>
			<version value=" 20150731"/>
			<code value="119297000"/>
			<display value="blood specimen"/>
		</coding>
	</type>
	<subject>
		<!-- Reference to the patient profile carried elsewhere in the message-->
		<reference value="urn:uuid:b2d4b85d-ac24-4e9c-a368-588c3f34f570"/>
		<display value="William Arthur Smith"/>
	</subject>
	<!-- Identifier assigned by the lab-->
	<accessionIdentifier>
		<system value="http://www.sampleth.nhs.uk/pathology/bloodsciences/labno"/>
		<value value="HAEM8667800001"/>
		<!--When the accession ID was first issued-->
		<period>
			<start value="2016-01-03T09:00:00+01:00"/>
		</period>
		<assigner>
			<!-- This can be a reference to the profile elsewhere in the message or just text -->
			<reference value="urn:uuid:223f5c66-66bf-4cea-a5d7-25ab9348b448"/>
		</assigner>
	</accessionIdentifier>
	<receivedTime value="2016-01-03T09:05:00+01:00"/>
	<collection>
		<!-- This is a reference to the practitioner profile elsewhere in the message -->
		<collector>
			<reference value="Practitioner/4bfca0ef-85d0-4c5e-b662-d4910bb83d82"/>
			<display value="Dr. Jones"/>
		</collector>
		<!-- Quantity collected. -->
		<quantity>
			<value value="6"/>
			<unit value="millilitre"/>
			<system value="http://unitsofmeasure.org"/>
			<code value="mL"/>
		</quantity>
		<!--Method of specimen collection using SNOMEDCT codes-->
		<method>
			<coding>
				<system value="http://snomed.info/sct"/>
				<code value="32564009"/>
				<display value="arterial specimen collection for laboratory test"/>
			</coding>
		</method>
		<bodySite>
			<coding>
				<system value="http://hl7.org/fhir/ValueSet/body-site"/>
				<code value="308046002"/>
				<display value="Structure of superficial forearm vein"/>
			</coding>
		</bodySite>
	</collection>
	<!-- This may need data relating to the processing of and procedures performed on the specimen, if any. Need to consult Subject matter experts.-->
	<treatment>
	</treatment>
	<!-- Description of the container of the specimen. -->
	<container>
		<identifier>
			<system value="http://mmp.nhs.uk/id/container-id"/>
			<value value="08fc96c4-eb3a-46d3-93c5-4b23792dcc1c"/>
			<assigner>
				<!-- This can be a reference to the profile elsewhere in the message or just text -->
				<reference value="urn:uuid:78d64bb3-b5b2-450b-aeb7-d9035ebc711d"/>
				<display value="MGP Medical Centre"/>
			</assigner>
		</identifier>
		<!--Type of container-->
		<type>
			<coding>
				<system value="http://snomed.info/sct"/>
				<version value=" 20150731"/>
				<code value="434746001"/>
				<display value="Specimen vial"/>
			</coding>
		</type>
		<capacity>
			<value value="10"/>
			<unit value="mL"/>
			<system value="http://unitsofmeasure.org"/>
		</capacity>
		<specimenQuantity>
			<value value="6"/>
			<unit value="mL"/>
			<system value="http://unitsofmeasure.org"/>
		</specimenQuantity>
	</container>
</Specimen>
	</resource>
</entry>
<entry>
	<resource>
		<Substance xmlns="http://hl7.org/fhir">
	<id value="fafee321-1a7e-4e7c-876a-debdfb0aaedf"/>
	<!--Identifies the profile being used-->
	<meta>
		<profile value="https://fhir.nhs.uk/StructureDefinition/dds-report-substance-1-0"/>
	</meta>
	<!--Shows two ingredients for the tablet contained in the master profile.-->
	<contained>
		<Substance>
			<id value="ingr1"/>
			<code>
				<coding>
					<system value="http://snomed.info/sct"/>
					<code value="372687004"/>
					<display value="Amoxicillin"/>
				</coding>
			</code>
		</Substance>
	</contained>
	<contained>
		<Substance>
			<id value="ingr2"/>
			<code>
				<coding>
					<system value="http://snomed.info/sct"/>
					<code value="395938000"/>
					<display value="Clavulanate potassium"/>
				</coding>
			</code>
		</Substance>
	</contained>
	<!--Master profile for the substance (tablet).-->
	<identifier>
		<use value="official"/>
		<type>
			<text value="Identifier allocated by manufacturing pharmaceutical company."/>
		</type>
		<!--Unique identifier assigned to the tablet issued by the pharmaceutical manufacturer.-->
		<system value="http://www.pharm.com/Id/substance-id"/>
		<value value="aeb22d1d-0dbf-426c-b86c-3f47dca4a4e8"/>
		<assigner>
			<!-- This can be a reference to the profile elsewhere in the message or just text -->
			<reference value="urn:uuid:0a6f71a7-161d-4a84-8573-ab55dbb19340"/>
			<display value="Pharm Pharmaceuticals Limited"/>
		</assigner>
	</identifier>
	<category>
		<coding>
			<system value="http://hl7.org.fhir/substance-category"/>
			<code value="drug"/>
			<display value="Drug or Medicament"/>
		</coding>
	</category>
	<code>
		<coding>
			<system value="http://snomed.info/sct"/>
			<code value="392259005"/>
			<display value="co-amoxiclav 875mg/125mg tablet"/>
		</coding>
	</code>
	<description value="Augmentin 875"/>
	<instance>
	<!--Identifier of the package containing the tablet-->
<identifier>
<!--Unique identifier assigned to the tablet issued by the pharmaceutical manufacturer.-->
<use value="official"/>
		<type>
			<text value="Identifier for the package containing the tablets allocated by manufacturing pharmaceutical company."/>
		</type>
		<system value="http://www.pharm.com/Id/package-id"/>
		<value value="d8bf142a-525e-4107-bb4d-67516df492da"/>
		<assigner>
			<!-- This can be a reference to the profile elsewhere in the message or just text -->
			<reference value="urn:uuid:0a6f71a7-161d-4a84-8573-ab55dbb19340"/>
			<display value="Pharm Pharmaceuticals Limited"/>
		</assigner>
</identifier>
<expiry value="2017-05-10"/>
</instance>
	<!--First ingredient of the master substance (tablet)-->
	<ingredient>
		<quantity>
			<numerator>
				<value value="875"/>
				<unit value="milligram"/>
				<system value="http://unitsofmeasure.org"/>
				<code value="mg"/>
			</numerator>
			<denominator>
				<value value="1000"/>
				<unit value="milligram"/>
				<system value="http://unitsofmeasure.org"/>
				<code value="mg"/>
			</denominator>
		</quantity>
		<!--Reference to first substance which makes up this master substance.-->
		<substance>
			<reference value="#ingr1"/>
		</substance>
	</ingredient>
	<!--Second ingredient of the master substance (tablet)-->
	<ingredient>
		<quantity>
			<numerator>
				<value value="125"/>
				<unit value="milligram"/>
				<system value="http://unitsofmeasure.org"/>
				<code value="mg"/>
			</numerator>
			<denominator>
				<value value="1000"/>
				<unit value="milligram"/>
				<system value="http://unitsofmeasure.org"/>
				<code value="mg"/>
			</denominator>
		</quantity>
		<!--Reference to second substance which makes up this master substance.-->
		<substance>
			<reference value="#ingr2"/>
		</substance>
	</ingredient>
</Substance>
	</resource>
</entry>
<entry>
	<resource>
		<Observation xmlns="http://hl7.org/fhir">
	<!--The id for this entity-->
	<id value="ce773525-85d2-4214-a4c3-8eb5984152c4"/>
	<!--Identifies the profile being used-->
	<meta>
		<profile value="https://fhir.nhs.uk/StructureDefinition/dds-report-supporting-information-observation-1-0"/>
	</meta>
	<identifier>
		<use value="official"/>
		<system value="http://www.sampleth.nhs.uk/pathology/bloodsciences/labno"/>
		<value value="HAEM2667800009"/>
		<assigner>
			<!-- This can be a reference to the profile elsewhere in the message or just text -->
			<reference value="urn:uuid:223f5c66-66bf-4cea-a5d7-25ab9348b448"/>
			<display value="Sampletown Teaching Hospitals, Pathology Services"/>
		</assigner>
	</identifier>
	<status value="cancelled"/>
	<category>
		<coding>
			<system value="http://hl7.org/fhir/ValueSet/observation-category"/>
			<code value="laboratory"/>
			<display value="Laboratory"/>
		</coding>
	</category>
	<code>
		<coding>
			<system value="http://snomed.info/sct"/>
			<code value="1022441000000101"/>
			<display value="Full blood count"/>
		</coding>
	</code>
	<subject>
		<reference value="urn:uuid:b2d4b85d-ac24-4e9c-a368-588c3f34f570"/>
		<display value="William Arthur Smith"/>
	</subject>
	<issued value="2016-01-08T12:35:40+01:00"/>
	<dataAbsentReason>
		<coding>
			<system value="http://snomed.info/sct"/>
			<code value="125154007"/>
			<display value="Specimen unsatisfactory for evaluation."/>
		</coding>
	</dataAbsentReason>
	<comments value="Tube broken in transit and sample leaked."/>
	<bodySite>
		<coding>
			<system value="http://hl7.org/fhir/ValueSet/body-site"/>
			<code value="308046002"/>
			<display value="Structure of superficial forearm vein"/>
		</coding>
	</bodySite>
</Observation>
	</resource>
</entry>
<entry>
	<resource>
		<FamilyMemberHistory xmlns="http://hl7.org/fhir">
	<!--The id for this entity-->
	<id value="3cdc5133-1a2e-461f-8baf-e09acfa49af6"/>
	<!--Identifies the profile being used-->
	<meta>
		<profile value="https://fhir.nhs.uk/StructureDefinition/dds-report-family-member-history-1-0"/>
	</meta>
	<identifier>
		<use value="usual"/>
		<system value="http://www.mmc.nhs.uk/fmh-id"/>
		<value value="MMCFMH8997654"/>
		<assigner>
			<!-- This can be a reference to the profile elsewhere in the message or just text -->
			<reference value="urn:uuid:78d64bb3-b5b2-450b-aeb7-d9035ebc711d"/>
			<display value="MGP Medical Centre"/>
		</assigner>
	</identifier>
	<patient>
		<!-- This is reference to the patient profile elsewhere in the message -->
		<reference value="urn:uuid:b2d4b85d-ac24-4e9c-a368-5883f34f570"/>
		<display value="William Arthur Smith"/>
	</patient>
	<!--The date the information was recorded.-->
	<date value="2013-09-17T10:30:30+01:00"/>
	<status value="completed"/>
	<!--The name and relevant details of the family member described.-->
	<name value="Muriel Smith"/>
	<relationship>
		<coding>
			<system value="https://fhir.nhs.uk/ValueSet/cda-person-relationship-type-1-0"/>
			<code value="12"/>
			<display value="Mother"/>
		</coding>
	</relationship>
	<gender value="female"/>
	<deceasedDate value="2013-07-14"/>
	<condition>
		<code>
			<coding>
				<system value="http://hl7.org/fhir/ValueSet/condition-code"/>
				<code value="371041009"/>
				<display value="Embolic Stroke"/>
			</coding>
			<text value="Stroke"/>
		</code>
		<outcome>
			<coding>
				<system value="http://hl7.org/fhir/ValueSet/condition-outcome"/>
				<code value="deceased"/>
				<display value="Deceased"/>
			</coding>
		</outcome>
		<onsetQuantity>
			<value value="62"/>
			<unit value="year"/>
			<system value="http://unitsofmeasure.org"/>
			<code value="a"/>
		</onsetQuantity>
	</condition>
</FamilyMemberHistory>
	</resource>
</entry>
<entry>
	<resource>
		<Observation xmlns="http://hl7.org/fhir">
	<!--The id for this entity-->
	<id value="26b1b97a-eb9f-443a-9df6-32ee27ddfef3"/>
	<!--Identifies the profile being used-->
	<meta>
		<profile value="https://fhir.nhs.uk/StructureDefinition/dds-report-observation-1-0"/>
	</meta>
	<identifier>
		<use value="usual"/>
		<system value="http://www.sampleth.nhs.uk/pathology/bloodtransfusion/labno"/>
		<value value="BT8667800011"/>
		<assigner>
			<!-- This can be a reference to the profile elsewhere in the message or just text -->
			<reference value="urn:uuid:223f5c66-66bf-4cea-a5d7-25ab9348b448"/>
		</assigner>
	</identifier>
	<status value="final"/>
	<category>
		<coding>
			<system value="http://hl7.org/fhir/ValueSet/observation-category"/>
			<code value="laboratory"/>
			<display value="Laboratory"/>
		</coding>
	</category>
	<!--Subject matter experts to be consulted on appropriate SNOMED code.-->
	<code>
		<coding>
			<system value="http://snomed.info/sct"/>
			<code value="250373003"/>
			<display value="Blood transfusion observation"/>
			<userSelected value="true"/>
		</coding>
	</code>
	<subject>
		<reference value="urn:uuid:b2d4b85d-ac24-4e9c-a368-588c3f34f570"/>
		<display value="William Arthur Smith"/>
	</subject>
	<effectiveDateTime value="2016-05-10T12:06:15+01:00"/>
	<issued value="2016-05-10T14:01:10+01:00"/>
	<!--Subject matter experts to be consulted on appropriate result value.-->
	<valueString value="Blood Group: O negative"/>
	<comments value="No atypical antibodies detected in this sample."/>
	<bodySite>
		<coding>
			<system value="http://hl7.org/fhir/ValueSet/body-site"/>
			<code value="308046002"/>
			<display value="Structure of superficial forearm vein"/>
		</coding>
	</bodySite>
	<!--Subject matter experts to be consulted on appropriate SNOMED code.-->
	<method>
		<coding>
			<system value="http://snomed.info/sct"/>
			<code value="To be determined"/>
			<display value="To be determined"/>
		</coding>
	</method>
	<specimen>
		<reference value="urn:uuid:b603cede-8c3f-4909-9cb1-d47c0fde9f8a"/>
	</specimen>
	<component>
		<code>
			<coding>
				<system value="http://snomed.info/sct"/>
				<code value="991901000000101"/>
				<display value="ABO blood grouping"/>
			</coding>
			<text value="ABO typing"/>
		</code>
		<valueString value="Blood Group O"/>
		<!--Need to clarify if reference ranges apply to this test.-->
		<referenceRange>
			<low>
			</low>
			<high>
			</high>
		</referenceRange>
	</component>
	<component>
		<!--Subject matter experts to be consulted on appropriate SNOMED code.-->
		<code>
			<coding>
				<system value="http://snomed.info/sct"/>
				<code value="165746003"/>
				<display value="RhD negative"/>
			</coding>
		</code>
		<valueString value="RH negative"/>
		<!--Need to clarify if reference ranges apply to this test-->
		<referenceRange>
			<low>
			</low>
			<high>
			</high>
		</referenceRange>
	</component>
	<component>
		<!--Subject matter experts to be consulted on appropriate SNOMED code.-->
		<code>
			<text value="Red cell antibody screen"/>
		</code>
		<valueString value="Antibodies not present."/>
		<!--Need to clarify if reference ranges apply to this test.-->
		<referenceRange>
			<low>
			</low>
			<high>
			</high>
		</referenceRange>
	</component>
</Observation>
	</resource>
</entry>
<entry>
	<resource>
		<Device xmlns="http://hl7.org/fhir">
	<id value="197DF56D-2A69-4DC4-937C-A10426D9B565"/>
	<!--Identifies the profile being used-->
	<meta>
		<profile value="https://fhir.nhs.uk/StructureDefinition/dds-report-device-1-0"/>
	</meta>
	<!--Serial number identifier for the device-->
	<identifier>
		<type>
			<coding>
				<system value="http://hl7.org/fhir/ValueSet/identifier-type"/>
				<code value="SNO"/>
				<display value="Serial Number"/>
			</coding>
		</type>
		<system value="http://acme.com/devices/pacemakers/octane/serial"/>
		<value value="1234-5678-90AB-CDEF"/>
	</identifier>
	<!--Type of device-->
	<type>
		<coding>
			<system value="http://acme.com/devices"/>
			<code value="octane2014"/>
			<display value="Performance pace maker for high octane patients"/>
		</coding>
	</type>
	<!--Device manufacturer-->
	<manufacturer value="Acme Devices, Inc"/>
	<model value="PM/Octane 2014"/>
	<!--Lot number of manufacture-->
	<lotNumber value="1234-5678"/>
	<!--More comprehensive contact details to be provided in future drafts-->
	<contact>
		<system value="phone"/>
		<value value="ext 4352"/>
	</contact>
</Device>
	</resource>
</entry>
</Bundle>