<?xml version="1.0" encoding="UTF-8"?>
<!--Sample XML file generated by XMLSpy v2015 sp2 (http://www.altova.com)-->
<DiagnosticReport xmlns="http://hl7.org/fhir" xmlns:xsi="http://www.w3.org/2001/XMLSchema-instance" xsi:schemaLocation="http://hl7.org/fhir  ../../Schemas/diagnosticreport.xsd">
	<meta>
		<profile value="https://fhir.nhs.uk/StructureDefinition/dds-report-1-0"/>
	</meta>
	<text>
		<status value="generated"/>
		<div xmlns="http://www.w3.org/1999/xhtml">
			<h3>FBC Report for William Arthur Smith (NHS Number: 474 199 1873) issued 24-Feb 2009 12:26</h3>
			<pre>
Full Blood Count      
      
Test								Value		Units				Reference Range
White Cell Count			12			x10*9/L			3.5 - 10.0
Red Cell Count				5.0			x10*12/L		4.25 - 5.75 
Haemoglobin					176			g/L				13.0 - 17.0
Haematocrit					0.230							0.400 - 0.500
Mean Cell Volume			90			fL					84 - 98
Mean Cell Hb					33.0			pg				27.5 - 32.0
Mean Cell Hb Con			34.0			pg				31.0 - 35.0
RDW							12.0			%					&lt; 14.5
Platelet Count				300			x10*9/L			150 - 400

Machine Differential      
      
Test                  			Value		Units        		Reference Range
Neutrophils					7.0			x10*9/L			1.7 - 7.5
Lymphocytes					3.0			x10*9/L			1.0 - 3.5   
Monocytes					1.0			x10*9/L			&lt; 0.6  
Eosinophils					0.1			x10*9/L			&lt; 0.4  
Basophils						0.1			x10*9/L			&lt; 0.1 
LUCs							0.2			x10*9/L			&lt; 0.4 
      </pre>
			<p>St Helier Pathology, Epsom and St. Helier University Hospitals NHS Trust	 / Signed: Dr Peter Mendelev, Duty Biochemist</p>
		</div>
	</text>
	<contained>
		<Observation>
			<!--All the data items (= Observations) are contained in this diagnostic report.
It would be equally valid - and normal - for them to be separate trackable items. 
However for the purposes of this example, it's more convenient to have them here. 
For more discussion, see under "Contained Resources" on the Resource Definitions topic page.-->
			<!--For users steeped in v2, each observation roughly corresponds with an OBX, 
and the Diagnostic Report with an ORU_R01 message-->
			<id value="r1"/>
			<status value="final"/>
			<code>
				<coding>
					<system value="http://loinc.org"/>
					<code value="718-7"/>
					<display value="Haemoglobin [Mass/volume] in Blood"/>
				</coding>
				<text value="Haemoglobin"/>
			</code>
			<subject>
				<reference value="urn:uuid:ffbcda04-bd23-4272-b08c-733725a21ce1"/>
				<display value="William Arthur Smith"/>
			</subject>
			<performer>
				<reference value="urn:uuid:78d64bb3-b5b2-450b-aeb7-d9035ebc711d"/>
				<display value="St. Helier Pathology, Epsom and St. Helier University Hospitals NHS Trust"/>
			</performer>
			<valueQuantity>

				<value value="12.0 "/>
				<unit value="g/L"/>
				<system value="http://unitsofmeasure.org"/>
				<code value="g/L"/>
			</valueQuantity>
			<interpretation>
				<coding>
					<system value="http://hl7.org/fhir/v2/0078"/>
					<code value="N"/>
				</coding>
			</interpretation>
			<referenceRange>
				<low>
					<value value="3.5"/>
					<unit value="g/L"/>
					<system value="http://unitsofmeasure.org"/>
					<code value="g/L"/>
				</low>
				<high>
					<value value="10.0"/>
					<unit value="g/L"/>
					<system value="http://unitsofmeasure.org"/>
					<code value="g/L"/>
				</high>
			</referenceRange>
		</Observation>
	</contained>
	<contained>
		<Observation>
			<id value="r2"/>
			<status value="final"/>
			<code>
				<coding>
					<system value="http://loinc.org"/>
					<code value="789-8"/>
					<display value="Erythrocytes [#/volume] in Blood by Automated count"/>
				</coding>
				<text value="Red Cell Count"/>
			</code>
			<subject>
				<reference value="urn:uuid:b2d4b85d-ac24-4e9c-a368-588c3f34f577"/>
			</subject>
			<performer>
				<reference value="urn:uuid:78d64bb3-b5b2-450b-aeb7-d9035ebc711d"/>
				<display value="St Helier Pathology, Epsom and St. Helier University Hospitals NHS Trust"/>
			</performer>
			<valueQuantity>
				<value value="5.0"/>
				<unit value="x10*12/L"/>
				<system value="http://unitsofmeasure.org"/>
				<code value="10*12/L"/>
			</valueQuantity>
			<referenceRange>
				<low>
					<value value="4.25"/>
					<unit value="x10*12/L"/>
					<system value="http://unitsofmeasure.org"/>
					<code value="10*12/L"/>
				</low>
				<high>
					<value value="5.75"/>
					<unit value="x10*12/L"/>
					<system value="http://unitsofmeasure.org"/>
					<code value="10*12/L"/>
				</high>
			</referenceRange>
		</Observation>
	</contained>
	<contained>
		<Observation>
			<id value="r3"/>
			<status value="final"/>
			<code>
				<coding>
					<system value="http://loinc.org"/>
					<code value="4544-3"/>
					<display value="Hematocrit [Volume Fraction] of Blood by Automated count"/>
				</coding>
				<text value="Haematocrit"/>
			</code>
			<subject>
				<reference value="urn:uuid:b2d4b85d-ac24-4e9c-a368-588c3f34f577"/>
			</subject>
			<performer>
				<reference value="urn:uuid:78d64bb3-b5b2-450b-aeb7-d9035ebc711d"/>
				<display value="St Helier Pathology, Epsom and St. Helier University Hospitals NHS Trust"/>
			</performer>
			<valueQuantity>
				<value value="0.230"/>
				<unit value="%"/>
			</valueQuantity>
			<interpretation>
				<coding>
					<system value="http://hl7.org/fhir/v2/0078"/>
					<code value="L"/>
				</coding>
			</interpretation>
			<referenceRange>
				<low>
					<value value="0.400"/>
					<unit value="%"/>
				</low>
				<high>
					<value value="0.500"/>
					<unit value="%"/>
				</high>
			</referenceRange>
		</Observation>
	</contained>
	<contained>
		<Observation>
			<id value="r4"/>
			<status value="final"/>
			<code>
				<coding>
					<system value="http://loinc.org"/>
					<code value="787-2"/>
					<display value="Erythrocyte mean corpuscular volume [Entitic volume] by Automated count"/>
				</coding>
				<text value="Mean Cell Volume"/>
			</code>
			<subject>
				<reference value="urn:uuid:b2d4b85d-ac24-4e9c-a368-588c3f34f577"/>
			</subject>
			<performer>
				<reference value="urn:uuid:78d64bb3-b5b2-450b-aeb7-d9035ebc711d"/>
				<display value="St Helier Pathology, Epsom and St. Helier University Hospitals NHS Trust"/>
			</performer>
			<valueQuantity>
				<value value="90"/>
				<unit value="fL"/>
				<system value="http://unitsofmeasure.org"/>
				<code value="fL"/>
			</valueQuantity>
			<interpretation>
				<coding>
					<system value="http://hl7.org/fhir/v2/0078"/>
					<code value="N"/>
				</coding>
			</interpretation>
			<referenceRange>
				<low>
					<value value="84"/>
					<unit value="fL"/>
					<system value="http://unitsofmeasure.org"/>
					<code value="fL"/>
				</low>
				<high>
					<value value="98"/>
					<unit value="fL"/>
					<system value="http://unitsofmeasure.org"/>
					<code value="fL"/>
				</high>
			</referenceRange>
		</Observation>
	</contained>
	<contained>
		<Observation>
			<id value="r5"/>
			<status value="final"/>
			<code>
				<coding>
					<system value="http://loinc.org"/>
					<code value="785-6"/>
					<display value="Erythrocyte mean corpuscular Haemoglobin [Entitic mass] by Automated count"/>
				</coding>
				<text value="Mean Cell Hb"/>
			</code>
			<subject>
				<reference value="urn:uuid:b2d4b85d-ac24-4e9c-a368-588c3f34f577"/>
			</subject>
			<performer>
				<reference value="urn:uuid:78d64bb3-b5b2-450b-aeb7-d9035ebc711d"/>
				<display value="St Helier Pathology, Epsom and St. Helier University Hospitals NHS Trust"/>
			</performer>
			<valueQuantity>
				<value value="33"/>
				<unit value="pg"/>
				<system value="http://unitsofmeasure.org"/>
				<code value="pg"/>
			</valueQuantity>
			<interpretation>
				<coding>
					<system value="http://hl7.org/fhir/v2/0078"/>
					<code value="H"/>
				</coding>
			</interpretation>
			<referenceRange>
				<low>
					<value value="27.5"/>
					<unit value="pg"/>
					<system value="http://unitsofmeasure.org"/>
					<code value="pg"/>
				</low>
				<high>
					<value value="32.0"/>
					<unit value="pg"/>
					<system value="http://unitsofmeasure.org"/>
					<code value="pg"/>
				</high>
			</referenceRange>
		</Observation>
	</contained>
	<contained>
		<Observation>
			<id value="r1"/>
			<status value="final"/>
			<code>
				<coding>
					<system value="http://loinc.org"/>
					<code value="786-4"/>
					<display value="Erythrocyte mean corpuscular hemoglobin concentration"/>
				</coding>
				<text value="Mean Cell Hb Conc"/>
			</code>
			<subject>
				<reference value="urn:uuid:b2d4b85d-ac24-4e9c-a368-588c3f34f577"/>
				<display value="Denzil Patronius"/>
			</subject>

			<performer>
				<reference value="urn:uuid:78d64bb3-b5b2-450b-aeb7-d9035ebc711d"/>
				<display value="St Helier Pathology, Epsom and St. Helier University Hospitals NHS Trust"/>
			</performer>
			<valueQuantity>
				<value value="34.0 "/>
				<unit value="g/L"/>
				<system value="http://unitsofmeasure.org"/>
				<code value="g/L"/>
			</valueQuantity>
			<referenceRange>
				<low>
					<value value="31.0"/>
					<unit value="g/L"/>
					<system value="http://unitsofmeasure.org"/>
					<code value="g/L"/>
				</low>
				<high>
					<value value="35.0"/>
					<unit value="g/L"/>
					<system value="http://unitsofmeasure.org"/>
					<code value="g/L"/>
				</high>
			</referenceRange>
		</Observation>
	</contained>

	<contained>
		<Observation>
			<id value="r3"/>
			<status value="final"/>
			<code>
				<coding>
					<system value="http://loinc.org"/>
					<code value="788-0"/>
					<display value="Erythrocyte distribution width [Ratio] by Automated count"/>
				</coding>
				<text value="RDW"/>
			</code>
			<subject>
				<reference value="urn:uuid:b2d4b85d-ac24-4e9c-a368-588c3f34f577"/>
			</subject>
			<performer>

				<reference value="urn:uuid:78d64bb3-b5b2-450b-aeb7-d9035ebc711d"/>

				<display value="St Helier Pathology, Epsom and St. Helier University Hospitals NHS Trust"/>
			</performer>
			<valueQuantity>
				<value value="12.0"/>
				<unit value="%"/>
			</valueQuantity>
			<interpretation>
				<coding>
					<system value="http://hl7.org/fhir/v2/0078"/>
					<code value="N"/>
				</coding>
			</interpretation>
			<referenceRange>
				<high>
					<value value="14.5"/>
					<unit value="%"/>
				</high>
			</referenceRange>
		</Observation>
	</contained>
	<contained>
		<Observation>
			<id value="r6"/>
			<status value="final"/>
			<code>
				<coding>
					<system value="http://loinc.org"/>
					<code value="777-3"/>
					<display value="Platelets [#/volume] in Blood by Automated count"/>
				</coding>
				<text value="Platelet Count"/>
			</code>
			<subject>
				<reference value="urn:uuid:b2d4b85d-ac24-4e9c-a368-588c3f34f577"/>
			</subject>
			<performer>

				<reference value="urn:uuid:78d64bb3-b5b2-450b-aeb7-d9035ebc711d"/>

				<display value="St Helier Pathology, Epsom and St. Helier University Hospitals NHS Trust"/>
			</performer>
			<valueQuantity>
				<value value="300"/>
				<unit value="x10*9/L"/>
				<system value="http://unitsofmeasure.org"/>
				<code value="10*9/L"/>
			</valueQuantity>
			<referenceRange>
				<low>
					<value value="150"/>
					<unit value="x10*9/L"/>
					<system value="http://unitsofmeasure.org"/>
					<code value="10*9/L"/>
				</low>
				<high>
					<value value="400"/>
					<unit value="x10*9/L"/>
					<system value="http://unitsofmeasure.org"/>
					<code value="10*9/L"/>
				</high>
			</referenceRange>
		</Observation>
	</contained>
	<contained>
		<Observation>
			<id value="r7"/>
			<status value="final"/>
			<code>
				<coding>
					<system value="http://loinc.org"/>
					<code value="6690-2"/>
					<display value="Leukocytes [#/volume] in Blood by Automated count"/>
				</coding>
				<text value="White Cell Count"/>
			</code>
			<subject>
				<reference value="urn:uuid:b2d4b85d-ac24-4e9c-a368-588c3f34f577"/>
			</subject>
			<performer>
				<reference value="urn:uuid:78d64bb3-b5b2-450b-aeb7-d9035ebc711d"/>
				<display value="St Helier Pathology, Epsom and St. Helier University Hospitals NHS Trust"/>
			</performer>
			<valueQuantity>
				<value value="12.0"/>
				<unit value="x10*9/L"/>
				<system value="http://unitsofmeasure.org"/>
				<code value="10*9/L"/>
			</valueQuantity>
			<interpretation>
				<coding>
					<system value="http://hl7.org/fhir/v2/0078"/>
					<code value="H"/>
				</coding>
			</interpretation>
			<referenceRange>
				<low>
					<value value="3.5"/>
					<unit value="x10*9/L"/>
					<system value="http://unitsofmeasure.org"/>
					<code value="10*9/L"/>
				</low>
				<high>
					<value value="10.0"/>
					<unit value="x10*9/L"/>
					<system value="http://unitsofmeasure.org"/>
					<code value="10*9/L"/>
				</high>
			</referenceRange>
		</Observation>
	</contained>
	<contained>
		<Observation>
			<id value="r8"/>
			<status value="final"/>
			<code>
				<coding>
					<system value="http://loinc.org"/>
					<code value="751-8 "/>
					<display value="Neutrophils [#/​volume] in Blood by Automated count"/>
				</coding>
				<text value="Neutrophils"/>
			</code>
			<subject>
				<reference value="urn:uuid:b2d4b85d-ac24-4e9c-a368-588c3f34f577"/>
			</subject>
			<performer>

				<reference value="urn:uuid:78d64bb3-b5b2-450b-aeb7-d9035ebc711d"/>
				<display value="St Helier Pathology, Epsom and St. Helier University Hospitals NHS Trust"/>
			</performer>
			<valueQuantity>
				<value value="7.0 "/>
				<unit value="g/L"/>
				<system value="http://unitsofmeasure.org"/>
				<code value="g/L"/>
			</valueQuantity>
			<referenceRange>
				<low>
					<value value="1.7"/>
					<unit value="g/L"/>
					<system value="http://unitsofmeasure.org"/>
					<code value="g/L"/>
				</low>
				<high>
					<value value="7.5"/>
					<unit value="g/L"/>
					<system value="http://unitsofmeasure.org"/>
					<code value="g/L"/>
				</high>
			</referenceRange>
		</Observation>
	</contained>
	<contained>
		<Observation>
			<id value="r11"/>
			<status value="final"/>
			<code>
				<coding>
					<system value="http://loinc.org"/>
					<code value="731-0"/>
					<display value="Lymphocytes [#/volume] in Blood by Automated count"/>
				</coding>
				<text value="Lymphocytes"/>
			</code>
			<subject>
				<reference value="urn:uuid:b2d4b85d-ac24-4e9c-a368-588c3f34f577"/>
			</subject>
			<performer>
				<reference value="urn:uuid:78d64bb3-b5b2-450b-aeb7-d9035ebc711d"/>
				<display value="St Helier Pathology, Epsom and St. Helier University Hospitals NHS Trust"/>
			</performer>
			<valueQuantity>
				<value value="3.0"/>
				<unit value="x10*9/L"/>
				<system value="http://unitsofmeasure.org"/>
				<code value="10*9/L"/>
			</valueQuantity>
			<interpretation>
				<coding>
					<system value="http://hl7.org/fhir/v2/0078"/>
					<code value="N"/>
				</coding>
			</interpretation>
			<referenceRange>
				<low>
					<value value="1.0"/>
					<unit value="x10*9/L"/>
					<system value="http://unitsofmeasure.org"/>
					<code value="10*9/L"/>
				</low>
				<high>
					<value value="3.5"/>
					<unit value="x10*9/L"/>
					<system value="http://unitsofmeasure.org"/>
					<code value="10*9/L"/>
				</high>
			</referenceRange>
		</Observation>
	</contained>
	<contained>
		<Observation>
			<id value="r13"/>
			<status value="final"/>
			<code>
				<coding>
					<system value="http://loinc.org"/>
					<code value="742-7"/>
					<display value="Monocytes [#/volume] in Blood by Automated count"/>
				</coding>
				<text value="Monocytes"/>
			</code>
			<subject>
				<reference value="urn:uuid:b2d4b85d-ac24-4e9c-a368-588c3f34f577"/>
			</subject>
			<performer>
				<reference value="urn:uuid:78d64bb3-b5b2-450b-aeb7-d9035ebc711d"/>
				<display value="St Helier Pathology, Epsom and St. Helier University Hospitals NHS Trust"/>
			</performer>
			<valueQuantity>
				<value value="1.0"/>
				<unit value="x10*9/L"/>
				<system value="http://unitsofmeasure.org"/>
				<code value="10*9/L"/>
			</valueQuantity>
			<interpretation>
				<coding>
					<system value="http://hl7.org/fhir/v2/0078"/>
					<code value="H"/>
				</coding>
			</interpretation>
			<referenceRange>
				<high>
					<value value="0.6"/>
					<unit value="x10*9/L"/>
					<system value="http://unitsofmeasure.org"/>
					<code value="10*9/L"/>
				</high>
			</referenceRange>
		</Observation>
	</contained>
	<!--<contained>
		<Observation>
			<id value="r14"/>
			<status value="final"/>
			<code>
				<coding>
					<system value="http://loinc.org"/>
					<code value="713-8"/>
					<display value="Eosinophils/100 leukocytes in Blood by Automated count"/>
				</coding>
				<text value="Eosinophils"/>
			</code>
			<subject>
				<reference value="urn:uuid:b2d4b85d-ac24-4e9c-a368-588c3f34f577"/>
			</subject>
			<performer>
				-->
	<!--Performer Profile Needed-->
	<!--
				<reference value="urn:uuid:78d64bb3-b5b2-450b-aeb7-d9035ebc711d"/>
				-->
	<!--dce uuid GOES HERE-->
	<!--
				<display value="St Helier Pathology, Epsom and St. Helier University Hospitals NHS Trust"/>
			</performer>
			<valueQuantity>
				<value value="20"/>
				<unit value="%"/>
				<system value="http://unitsofmeasure.org"/>
				<code value="%"/>
			</valueQuantity>
		</Observation>
	</contained>-->
	<contained>
		<Observation>
			<id value="r15"/>
			<status value="final"/>
			<code>
				<coding>
					<system value="http://loinc.org"/>
					<code value="711-2"/>
					<display value="Eosinophils [#/volume] in Blood by Automated count"/>
				</coding>
				<text value="Eosinophils"/>
			</code>
			<subject>
				<reference value="urn:uuid:b2d4b85d-ac24-4e9c-a368-588c3f34f577"/>
			</subject>
			<performer>
				<reference value="urn:uuid:78d64bb3-b5b2-450b-aeb7-d9035ebc711d"/>
				<display value="St Helier Pathology, Epsom and St. Helier University Hospitals NHS Trust"/>
			</performer>
			<valueQuantity>
				<value value="0.1"/>
				<unit value="x10*9/L"/>
				<system value="http://unitsofmeasure.org"/>
				<code value="10*9/L"/>
			</valueQuantity>
			<referenceRange>
				<high>
					<value value="0.4"/>
					<unit value="x10*9/L"/>
					<system value="http://unitsofmeasure.org"/>
					<code value="10*9/L"/>
				</high>
			</referenceRange>
		</Observation>
	</contained>
	<!--<contained>
		<Observation>
			<id value="r16"/>
			<status value="final"/>
			<code>
				<coding>
					<system value="http://loinc.org"/>
					<code value="706-2"/>
					<display value="Basophils/100 leukocytes in Blood by Automated count"/>
				</coding>
				<text value="Basophils"/>
			</code>
			<subject>
				<reference value="urn:uuid:b2d4b85d-ac24-4e9c-a368-588c3f34f577"/>
			</subject>
			<performer>
				-->
	<!--Performer Profile Needed-->
	<!--
				<reference value="urn:uuid:78d64bb3-b5b2-450b-aeb7-d9035ebc711d"/>
				-->
	<!--dce uuid GOES HERE-->
	<!--
				<display value="St Helier Pathology, Epsom and St. Helier University Hospitals NHS Trust"/>
			</performer>
			<valueQuantity>
				<value value="20"/>
				<unit value="%"/>
				<system value="http://unitsofmeasure.org"/>
				<code value="%"/>
			</valueQuantity>
		</Observation>
	</contained>-->
	<contained>
		<Observation>
			<id value="r17"/>
			<status value="final"/>
			<code>
				<coding>
					<system value="http://loinc.org"/>
					<code value="704-7"/>
					<display value="Basophils [#/volume] in Blood by Automated count"/>
				</coding>
				<text value="Basophils"/>
			</code>
			<subject>
				<reference value="urn:uuid:b2d4b85d-ac24-4e9c-a368-588c3f34f577"/>
			</subject>
			<performer>
				<reference value="urn:uuid:78d64bb3-b5b2-450b-aeb7-d9035ebc711d"/>
				<display value="St Helier Pathology, Epsom and St. Helier University Hospitals NHS Trust"/>
			</performer>
			<valueQuantity>
				<value value="0.1"/>
				<unit value="x10*9/L"/>
				<system value="http://unitsofmeasure.org"/>
				<code value="10*9/L"/>
			</valueQuantity>
			<referenceRange>
				<high>
					<value value="0.1"/>
					<unit value="x10*9/L"/>
					<system value="http://unitsofmeasure.org"/>
					<code value="10*9/L"/>
				</high>
			</referenceRange>
		</Observation>
	</contained>
	<contained>
		<Observation>
			<id value="r17"/>
			<status value="final"/>
			<code>
				<coding>
					<system value="http://loinc.org"/>
					<code value="17789-9 "/>
					<display value="Large unstained cells [#/volume] in Blood by Automated count"/>
				</coding>
				<text value="LUCs"/>
			</code>
			<subject>
				<reference value="urn:uuid:b2d4b85d-ac24-4e9c-a368-588c3f34f577"/>
			</subject>
			<performer>
				<reference value="urn:uuid:78d64bb3-b5b2-450b-aeb7-d9035ebc711d"/>
				<display value="St Helier Pathology, Epsom and St. Helier University Hospitals NHS Trust"/>
			</performer>
			<valueQuantity>
				<value value="0.2"/>
				<unit value="x10*9/L"/>
				<system value="http://unitsofmeasure.org"/>
				<code value="10*9/L"/>
			</valueQuantity>
			<referenceRange>
				<high>
					<value value="0.4"/>
					<unit value="x10*9/L"/>
					<system value="http://unitsofmeasure.org"/>
					<code value="10*9/L"/>
				</high>
			</referenceRange>
		</Observation>
	</contained>
	<identifier>
		<system value="http://acme.com/lab/reports"/>
		<value value="5234342"/>
	</identifier>
	<status value="final"/>
	<category>
		<coding>
			<system value="http://hl7.org/fhir/v2/0074"/>
			<code value="HM"/>
		</coding>
	</category>
	<code>
		<coding>
			<system value="http://loinc.org"/>
			<code value="58410-2"/>
			<display value="Complete blood count (hemogram) panel - Blood by Automated count"/>
		</coding>
		<coding>
			<code value="CBC"/>
			<display value="MASTER FULL BLOOD COUNT"/>
		</coding>
		<text value="Full Blood Count"/>
	</code>
	<subject>
		<reference value="urn:uuid:b2d4b85d-ac24-4e9c-a368-588c3f34f577"/>
	</subject>
	<encounter>
		<reference value="Encounter/example"/>
	</encounter>
	<effectiveDateTime value="2008-12-08"/>
	<issued value="2009-02-09T12:16:00+11:00"/>
	<performer>
		<reference value="urn:uuid:78d64bb3-b5b2-450b-aeb7-d9035ebc711d"/>
		<display value="St Helier Pathology, Epsom and St. Helier University Hospitals NHS Trust"/>
	</performer>
	<result>
		<reference value="#r1"/>
	</result>
	<result>
		<reference value="#r2"/>
	</result>
	<result>
		<reference value="#r3"/>
	</result>
	<result>
		<reference value="#r4"/>
	</result>
	<result>
		<reference value="#r5"/>
	</result>
	<result>
		<reference value="#r6"/>
	</result>
	<result>
		<reference value="#r7"/>
	</result>
	<result>
		<reference value="#r8"/>
	</result>
	<result>
		<reference value="#r9"/>
	</result>
	<result>
		<reference value="#r10"/>
	</result>
	<result>
		<reference value="#r11"/>
	</result>
	<result>
		<reference value="#r12"/>
	</result>
	<result>
		<reference value="#r13"/>
	</result>
	<result>
		<reference value="#r14"/>
	</result>
	<result>
		<reference value="#r15"/>
	</result>
	<result>
		<reference value="#r16"/>
	</result>
	<result>
		<reference value="#r17"/>
	</result>
</DiagnosticReport>